<RequestGroup xmlns="http://hl7.org/fhir">
	<id value="UKCore-RequestGroup-Paracetamol-Example"/>
	<contained>
		<MedicationDispense xmlns="http://hl7.org/fhir">
			<id value="UKCore-MedicationDispense-ParacetamolOral-Example"/>
			<status value="completed"/>
			<category>
				<coding>
					<system value="http://terminology.hl7.org/fhir/CodeSystem/medicationdispense-category"/>
					<code value="inpatient"/>
					<display value="Inpatient"/>
				</coding>
			</category>
			<medicationCodeableConcept>
				<coding>
					<system value="https://dmd.nhs.uk"/>
					<code value="558911000001105"/>
					<display value="Paracetamol 500mg capsules"/>
				</coding>
			</medicationCodeableConcept>
			<subject>
				<reference value="Patient/UKCore-Patient-RichardSmith-Example"/>
			</subject>
			<performer>
				<actor>
					<reference value="Practitioner/UKCore-Practitioner-PharmacistJimmyChuck-Example"/>
				</actor>
			</performer>
			<authorizingPrescription>
				<reference value="UKCore-MedicationRequest-ParacetamolOral-Example"/>
			</authorizingPrescription>
			<quantity>
				<value value="16"/>
				<unit value="capsule"/>
				<system value="http://snomed.info/sct"/>
				<code value="732937005"/>
			</quantity>
			<daysSupply>
				<value value="4"/>
				<unit value="Day"/>
				<system value="http://unitsofmeasure.org"/>
				<code value="d"/>
			</daysSupply>
			<whenPrepared value="2023-06-15T18:00:00+00:00"/>
			<receiver>
				<reference value="Patient/UKCore-Patient-RichardSmith-Example"/>
			</receiver>
			<dosageInstruction>
				<text value="Take 1 capsule, 4 times a day."/>
				<timing>
					<repeat>
						<frequency value="4"/>
						<period value="24"/>
						<periodUnit value="h"/>
					</repeat>
				</timing>
				<route>
					<coding>
						<system value="http://snomed.info/sct"/>
						<code value="26643006"/>
						<display value="Oral"/>
					</coding>
				</route>
				<method>
					<coding>
						<system value="http://snomed.info/sct"/>
						<code value="421984009"/>
						<display value="Until finished"/>
					</coding>
				</method>
			</dosageInstruction>
		</MedicationDispense>
	</contained>
	<contained>
		<MedicationRequest xmlns="http://hl7.org/fhir">
			<id value="UKCore-MedicationRequest-ParacetamolIV-Example"/>
			<status value="completed"/>
			<intent value="option"/>
			<category>
				<coding>
					<system value="http://terminology.hl7.org/CodeSystem/medicationrequest-category"/>
					<code value="inpatient"/>
					<display value="Inpatient"/>
				</coding>
			</category>
			<medicationCodeableConcept>
				<coding>
					<system value="https://dmd.nhs.uk"/>
					<code value="777067000"/>
					<display value="Paracetamol"/>
				</coding>
			</medicationCodeableConcept>
			<subject>
				<reference value="Patient/UKCore-Patient-RichardSmith-Example"/>
			</subject>
			<authoredOn value="2023-06-15T15:00:00.000Z"/>
			<requester>
				<reference value="Practitioner/UKCore-Practitioner-ConsultantSandraGose-Example"/>
			</requester>
			<courseOfTherapyType>
				<coding>
					<system value="http://terminology.hl7.org/CodeSystem/medicationrequest-course-of-therapy"/>
					<code value="acute"/>
					<display value="Short course (acute) therapy"/>
				</coding>
			</courseOfTherapyType>
			<dosageInstruction>
				<text value="Paracetamol 500mg, four times a day."/>
				<timing>
					<repeat>
						<frequency value="4"/>
						<period value="24"/>
						<periodUnit value="h"/>
					</repeat>
				</timing>
				<method>
					<coding>
						<system value="http://snomed.info/sct"/>
						<code value="13283701000001109"/>
						<display value="Infusion"/>
					</coding>
				</method>
				<doseAndRate>
					<type>
						<coding>
							<system value="http://terminology.hl7.org/CodeSystem/dose-rate-type"/>
							<code value="ordered"/>
							<display value="Ordered"/>
						</coding>
					</type>
					<doseQuantity>
						<value value="500"/>
						<unit value="milligram"/>
						<system value="http://unitsofmeasure.org"/>
						<code value="mg"/>
					</doseQuantity>
				</doseAndRate>
			</dosageInstruction>
			<substitution>
				<allowedBoolean value="true"/>
			</substitution>
		</MedicationRequest>
	</contained>
	<status value="completed"/>
	<intent value="order"/>
	<priority value="routine"/>
	<code>
		<coding>
			<system value="https://dmd.nhs.uk"/>
			<code value="777067000"/>
			<display value="Paracetamol"/>
		</coding>
	</code>
	<subject>
		<reference value="Patient/UKCore-Patient-RichardSmith-Example"/>
	</subject>
	<authoredOn value="2023-06-15T15:00:00.000Z"/>
	<author>
		<reference value="Practitioner/UKCore-Practitioner-ConsultantSandraGose-Example"/>
	</author>
	<action id="UKCore-MedicationDispense-ParacetamolOral-Example">
		<description value="Paracetamol 500mg, four times a day orally."/>
		<type>
			<coding>
				<code value="create"/>
			</coding>
		</type>
		<resource>
			<reference value="MedicationRequest/UKCore-MedicationDispense-ParacetamolOral-Example"/>
		</resource>
	</action>
	<action id="UKCore-MedicationRequest-ParacetamolIV-Example">
		<description value="Paracetamol 500mg, four times a day via IV."/>
		<type>
			<coding>
				<code value="create"/>
			</coding>
		</type>
		<resource>
			<reference value="MedicationRequest/UKCore-MedicationRequest-ParacetamolIV-Example"/>
		</resource>
	</action>
	<type value="create"/>
	<selectionBehavior value="at-most-one"/>
</RequestGroup>